"trial_type","trial_index","time_elapsed","rt","exp_condition","grain","mov_name","response","subid","recall_time","condition","movName"
"typing-period",34,1027349,"1470387.3000004292","continuous","c","iron","the man did not like the weight reading and took it apart and fixed the scale. He then took his wieght again",43318,"2554","Uninterrupted","3Iron"
"typing-period",36,1044502,"430237.7999994457","continuous","c","iron","the man also took apart a clock when he entered the next home ",43318,"2317.5","Uninterrupted","3Iron"
"typing-period",38,1062297,"995475.6999992132","continuous","c","iron","when he entered the second home there was a girl there that avoided him for most of the night ",43318,"787.8000000119209","Uninterrupted","3Iron"
"typing-period",40,1079217,"833470.7000003457","continuous","c","iron","the man made breakfest for the girl and used some rice from the rice cooker",43318,"444","Uninterrupted","3Iron"
"typing-period",42,1105854,"1407530.8999991715","continuous","c","iron","the man took photos at the first house he was at and another photo with the weird painting of a girl",43318,"532.5","Uninterrupted","3Iron"
"typing-period",44,1124062,"831994.9999988377","continuous","c","iron","both the man and girl took a photo with boxing gloves at the last house ",43318,"488.09999999403954","Uninterrupted","3Iron"
"typing-period",46,1141309,"705287.4999990165","continuous","c","iron","the girl had the man cut her hair and she then styled it before taking a photo",43318,"500.2000000178814","Uninterrupted","3Iron"
"typing-period",48,1158741,"805822.3999992907","continuous","c","iron","the man took apart a stereo and messed around with its inner mechanisms",43318,"548.0999999940395","Uninterrupted","3Iron"
"typing-period",50,1172386,"501381.40000092983","continuous","c","iron","the man left the first house once the family that lived there showed up",43318,"636.8000000119209","Uninterrupted","3Iron"
"typing-period",52,1198158,"1274402.0000011623","continuous","c","iron","there were these takeout signs (?) on the front door knobs for the first two houses ",43318,"408","Uninterrupted","3Iron"
"typing-period",54,1215293,"652148.6999991834","continuous","c","iron","the man uses alot of shampoo while showering at the first house ",43318,"770.9000000059605","Uninterrupted","3Iron"
"typing-period",56,1226945,"353184.10000011325","continuous","c","iron","the girl seemed to be crying while in the bath",43318,"588.0999999940395","Uninterrupted","3Iron"
"typing-period",58,1232753,"97954.0999995172","continuous","c","iron","the man picked out the girls outfit",43318,"336.60000002384186","Uninterrupted","3Iron"
"typing-period",60,1247077,"518180.8999992311","continuous","c","iron","the man tied a golf ball to a tree and practiced swinging",43318,"295.90000000596046","Uninterrupted","3Iron"
"typing-period",62,1260225,"434319.0999996066","continuous","c","iron","one passerby got scared he almost got hit by a golf ball",43318,"488.59999999403954","Uninterrupted","3Iron"
"typing-period",64,1278894,"786715.1999990642","continuous","c","iron","in the house with the camera system, there was another girl that stopped by",43318,"231.90000000596046","Uninterrupted","3Iron"
"typing-period",66,1293002,"381972.2000001073","continuous","c","iron","the guy travels  everywhere using the motorcycle",43318,"679.9000000059605","Uninterrupted","3Iron"
"typing-period",68,1302118,"135011.19999992847","continuous","c","iron","he eats a lot of rice",43318,"1383.800000011921","Uninterrupted","3Iron"
"typing-period",70,1302156,"null","continuous","c","iron","",43318,"null","Uninterrupted","3Iron"
"typing-period",81,1906205,"792770.9999996424","continuous","c","corn","the man gave the soldiers an awkward nod when they drove by on their boat",43318,"1858.800000011921","Uninterrupted","Corn"
"typing-period",83,1924817,"709861.8000007272","continuous","c","corn","the girl balances on a piece of wood when she first arrives to the small piece of land",43318,"504.40000000596046","Uninterrupted","Corn"
"typing-period",85,1941029,"769031.0000009835","continuous","c","corn","the old man starts a fire for the night and the girl and him stay around it",43318,"416.09999999403954","Uninterrupted","Corn"
"typing-period",87,1960425,"1037600.4999994636","continuous","c","corn","the girl brought food both the both of them to eat and she drank some water from the jug directly",43318,"654","Uninterrupted","Corn"
"typing-period",89,1981957,"1292941.7000013888","continuous","c","corn","the old man first arrived to the island alone via boat and then brought the girl the following day",43318,"424","Uninterrupted","Corn"
"typing-period",91,2000953,"994906.6000000238","continuous","c","corn","the man used this piece of metal on a string to check if he placed the beams vertically on the land ",43318,"447.90000000596046","Uninterrupted","Corn"
"typing-period",93,2037072,"3225526.800001085","continuous","c","corn","they used straw to build the roof of  the shack, the man brought mutliple stacks of straw at once and the girl brought one stack at a time",43318,"380.19999998807907","Uninterrupted","Corn"
"typing-period",95,2064692,"2005930.0999982953","continuous","c","corn","the man used a ladder to access the top of the shack and there was a small hole in the shack to accomadate the ladder",43318,"567.6000000238419","Uninterrupted","Corn"
"typing-period",97,2093216,"1705369.5999998748","continuous","c","corn","the girl and the man lay under the frame structure of the shack ",43318,"556.0999999940395","Uninterrupted","Corn"
"typing-period",99,2112449,"967712.1000009477","continuous","c","corn","the girl looks off into the mist when she went to the water to wash her legs ",43318,"688.1999999880791","Uninterrupted","Corn"
"typing-period",101,2128104,"662933.0999987125","continuous","c","corn","the man put his tools in the shack before locking up and leaving with the girl ",43318,"519.7000000178814","Uninterrupted","Corn"
"typing-period",103,2155041,"1485893.2000010908","continuous","c","corn","the old man first started the shack using a few beams to make the skeleton of it ",43318,"507.80000001192093","Uninterrupted","Corn"
"typing-period",105,2184937,"1980714.3000013232","continuous","c","corn","the girl had mutiple different foods for the both of them to eat. she split cheese into two and shared",43318,"316.19999998807907","Uninterrupted","Corn"
"typing-period",34,994958,"9223.000000000233","continuous","c","iron","cleaning",46900,"2764.9999999998836","Uninterrupted","3Iron"
"typing-period",36,1001087,"48424.000000000466","continuous","c","iron","picking up clothes",46900,"1327","Uninterrupted","3Iron"
"typing-period",38,1004430,"18523.999999998952","continuous","c","iron","fixing things",46900,"1157.9999999998836","Uninterrupted","3Iron"
"typing-period",40,1009238,"25790.99999999872","continuous","c","iron","scrubbing floor",46900,"1895","Uninterrupted","3Iron"
"typing-period",42,1015653,"56741.00000000023","continuous","c","iron","wife scrubbing floor",46900,"2047","Uninterrupted","3Iron"
"typing-period",44,1027309,"244184.00000000012","continuous","c","iron","taking pictures",46900,"1383.0000000001164","Uninterrupted","3Iron"
"typing-period",46,1056323,"1350169.0000000019","continuous","c","iron","fixing weight scale with screwdriver",46900,"984","Uninterrupted","3Iron"
"typing-period",48,1064675,"100730.00000000023","continuous","c","iron","fixing clock with screwdriver",46900,"1806.0000000002328","Uninterrupted","3Iron"
"typing-period",50,1078515,"265159.00000000163","continuous","c","iron","fixing cd/cassette player with screwdriver",46900,"1734","Uninterrupted","3Iron"
"typing-period",52,1082074,"27855.000000000466","continuous","c","iron","cutting hair",46900,"566.0000000002328","Uninterrupted","3Iron"
"typing-period",54,1092241,"159968.00000000023","continuous","c","iron","picture in front of boxer/fighter",46900,"792","Uninterrupted","3Iron"
"typing-period",56,1100138,"87362.00000000047","continuous","c","iron","cooking rice in rice cooker",46900,"2696","Uninterrupted","3Iron"
"typing-period",58,1119489,"276135.00000000023","continuous","c","iron","spraying plants with water bottle",46900,"7830.999999999767","Uninterrupted","3Iron"
"typing-period",60,1145230,"206011.0000000014","continuous","c","iron","cutting picture into squares and rearranging",46900,"15941","Uninterrupted","3Iron"
"typing-period",62,1290555,"null","continuous","c","iron","",46900,"null","Uninterrupted","3Iron"
"typing-period",73,1910650,"32972.0000000007","continuous","c","corn","building a house",46900,"5716","Uninterrupted","Corn"
"typing-period",75,1919601,"114898.00000000093","continuous","c","corn","collecting wood",46900,"2494","Uninterrupted","Corn"
"typing-period",77,1922600,"15006.000000000233","continuous","c","corn","sawing wood",46900,"727","Uninterrupted","Corn"
"typing-period",79,1930088,"34593.00000000093","continuous","c","corn","collecting straw",46900,"3190","Uninterrupted","Corn"
"typing-period",81,1942445,"48627.99999999511","continuous","c","corn","collecting wooden planks",46900,"8628","Uninterrupted","Corn"
"typing-period",83,1947757,"46248.999999997206","continuous","c","corn","daughter appears?",46900,"1127","Uninterrupted","Corn"
"typing-period",85,1956744,"106771.00000000093","continuous","c","corn","rowing boat",46900,"694.9999999997672","Uninterrupted","Corn"
"typing-period",87,1966979,"109761.00000000116","continuous","c","corn","military float by",46900,"639","Uninterrupted","Corn"
"typing-period",89,1975091,"127066.00000000116","continuous","c","corn","nod to avoid confrontation",46900,"1319","Uninterrupted","Corn"
"typing-period",91,1981003,"57079.999999996275","continuous","c","corn","house is complete",46900,"1711","Uninterrupted","Corn"
"typing-period",93,1985571,"24998.000000000233","continuous","c","corn","row away",46900,"775","Uninterrupted","Corn"
"typing-period",95,2201767,"null","continuous","c","corn","",46900,"null","Uninterrupted","Corn"
"typing-period",34,1568940,"111078","continuous","f","corn","paddle on boat",47710,"841","Uninterrupted","Corn"
"typing-period",36,1573463,"27792.00000000093","continuous","f","corn","pick up girl",47710,"755","Uninterrupted","Corn"
"typing-period",38,1578433,"19729.0000000007","continuous","f","corn","take out wood",47710,"2284","Uninterrupted","Corn"
"typing-period",40,1583710,"33226.000000000466","continuous","f","corn","dig into sand",47710,"2139","Uninterrupted","Corn"
"typing-period",42,1592565,"93518.0000000007","continuous","f","corn","watch soldiers approah",47710,"1819","Uninterrupted","Corn"
"typing-period",44,1601430,"89531.00000000093","continuous","f","corn","girl helps build",47710,"753","Uninterrupted","Corn"
"typing-period",46,1606259,"44392","continuous","f","corn","starting fire",47710,"622","Uninterrupted","Corn"
"typing-period",48,1613331,"78418.0000000007","continuous","f","corn","girl looks up",47710,"524","Uninterrupted","Corn"
"typing-period",50,1624610,"203408.00000000116","continuous","f","corn","man lines up the wood",47710,"725","Uninterrupted","Corn"
"typing-period",52,1631703,"72384.00000000047","continuous","f","corn","man parks boat",47710,"634","Uninterrupted","Corn"
"typing-period",54,1635736,"39210.0000000007","continuous","f","corn","man jumps out of boat",47710,"720","Uninterrupted","Corn"
"typing-period",56,1636774,"280","continuous","f","corn","",47710,"757","Uninterrupted","Corn"
"typing-period",58,1644963,"43464.00000000186","continuous","f","corn","man tosses wood",47710,"2364","Uninterrupted","Corn"
"typing-period",60,1671711,"496518.00000000047","continuous","f","corn"," they finish house",47710,"643","Uninterrupted","Corn"
"typing-period",62,1676981,"35457.00000000023","continuous","f","corn","man breakd ground",47710,"1539","Uninterrupted","Corn"
"typing-period",64,1682902,"58885.0000000007","continuous","f","corn","man walks with log",47710,"516.0000000002328","Uninterrupted","Corn"
"typing-period",66,1741916,"1560443.9999999944","continuous","f","corn"," man hammered down wood",47710,"719","Uninterrupted","Corn"
"typing-period",68,1749667,"89629","continuous","f","corn","man wiped brow",47710,"617","Uninterrupted","Corn"
"typing-period",70,1759542,"133650.00000000047","continuous","f","corn","girl ate chicken",47710,"654","Uninterrupted","Corn"
"typing-period",72,1763830,"24930.000000000233","continuous","f","corn","man ate chicken",47710,"1410","Uninterrupted","Corn"
"typing-period",74,1773824,"197602.00000000047","continuous","f","corn","soldiers drove boat by",47710,"482","Uninterrupted","Corn"
"typing-period",76,1781697,"121266.00000000047","continuous","f","corn","man gets out of boat",47710,"1071.9999999997672","Uninterrupted","Corn"
"typing-period",78,1786139,"53398.000000000466","continuous","f","corn","girl gets out of boat",47710,"506","Uninterrupted","Corn"
"typing-period",80,1837075,"640759.0000000005","continuous","f","corn","bulding fire",47710,"442","Uninterrupted","Corn"
"typing-period",82,1848791,"164560.9999999965","continuous","f","corn","laying out wood",47710,"528","Uninterrupted","Corn"
"typing-period",84,1859622,"null","continuous","f","corn","",47710,"502","Uninterrupted","Corn"
"typing-period",95,2474380,"89307.0000000014","continuous","f","iron","man on bike",47710,"1718","Uninterrupted","3Iron"
"typing-period",97,2479012,"32635.00000000093","continuous","f","iron","girl joins on bike",47710,"1765","Uninterrupted","3Iron"
"typing-period",99,2482611,"16400.000000001397","continuous","f","iron","biking around",47710,"1675","Uninterrupted","3Iron"
"typing-period",101,2489431,"118853.00000000233","continuous","f","iron","takes off helmet",47710,"567","Uninterrupted","3Iron"
"typing-period",103,2497709,"118628.0000000014","continuous","f","iron","checks car bag thing",47710,"673","Uninterrupted","3Iron"
"typing-period",105,2512904,"291849.0000000028","continuous","f","iron","closes scooter trunk",47710,"771","Uninterrupted","3Iron"
"typing-period",107,2518469,"34770.999999993015","continuous","f","iron","man investigates",47710,"2201","Uninterrupted","3Iron"
"typing-period",109,2525818,"96452.99999998743","continuous","f","iron","man scrubs bathroom floor",47710,"1377","Uninterrupted","3Iron"
"typing-period",111,2533166,"82115","continuous","f","iron","man explores house",47710,"1404","Uninterrupted","3Iron"
"typing-period",113,2539619,"90647.00000000093","continuous","f","iron","man explores enouther house",47710,"920","Uninterrupted","3Iron"
"typing-period",115,2581362,"1192668.000000001","continuous","f","iron","girl shows off bruises",47710,"692","Uninterrupted","3Iron"
"typing-period",117,2586162,"39472.0000000014","continuous","f","iron","man helps with bruises",47710,"748","Uninterrupted","3Iron"
"typing-period",119,2589960,"29424.000000000466","continuous","f","iron","woman watches",47710,"726","Uninterrupted","3Iron"
"typing-period",121,2595180,"41735.999999992084","continuous","f","iron","they eat soup",47710,"1378.0000000004657","Uninterrupted","3Iron"
"typing-period",123,2669324,"1294599.0000000005","continuous","f","iron"," man takes a bath",47710,"473","Uninterrupted","3Iron"
"typing-period",125,2676355,"87993.0000000014","continuous","f","iron","man opens cabinets",47710,"531","Uninterrupted","3Iron"
"typing-period",127,2695258,"452248.0000000023","continuous","f","iron","wooman comes out of hiding",47710,"661","Uninterrupted","3Iron"
"typing-period",129,2702786,"102576.00000000186","continuous","f","iron","man checks out doorways",47710,"558","Uninterrupted","3Iron"
"typing-period",131,2745148,"519015.00000000093","continuous","f","iron","woman smiled",47710,"1196","Uninterrupted","3Iron"
"typing-period",133,2749169,"33927.999999993015","continuous","f","iron","man picked lock",47710,"602","Uninterrupted","3Iron"
"typing-period",135,2752806,"28363","continuous","f","iron","man went inside",47710,"797","Uninterrupted","3Iron"
"typing-period",137,2757856,"49726.00000000093","continuous","f","iron","man climbed stairs",47710,"705","Uninterrupted","3Iron"
"typing-period",139,2761466,"26828.00000000093","continuous","f","iron","man opened door",47710,"458.99999999953434","Uninterrupted","3Iron"
"typing-period",141,2765576,"null","continuous","f","iron","",47710,"639","Uninterrupted","3Iron"
"typing-period",38,1020913,"186903.7000001669","continuous","f","corn","man rowing to island",48334,"6356.20000000298","Uninterrupted","Corn"
"typing-period",40,1036697,"310460.5000003278","continuous","f","corn","girl washing legs in water",48334,"3554.5999999940395","Uninterrupted","Corn"
"typing-period",42,1053898,"347484.30000016093","continuous","f","corn","man using weight to level poles",48334,"3970.4000000059605","Uninterrupted","Corn"
"typing-period",44,1073305,"288984.19999974966","continuous","f","corn","military men driving by in motor boat",48334,"6200.5","Uninterrupted","Corn"
"typing-period",46,1085569,"108427.4999999851","continuous","f","corn","girl and man eating food",48334,"4947.899999991059","Uninterrupted","Corn"
"typing-period",48,1100776,"287126.4000003338","continuous","f","corn","girl drinking and spilling water on chin",48334,"5057.29999999702","Uninterrupted","Corn"
"typing-period",50,1125485,"641356.1000005156","continuous","f","corn","girl and man getting straw for ceiling of home",48334,"5961","Uninterrupted","Corn"
"typing-period",52,1145510,"352737.80000017583","continuous","f","corn","girl and man sleeping under the shell of the house ",48334,"4982.70000000298","Uninterrupted","Corn"
"typing-period",54,1166593,"158875.19999998808","continuous","f","corn","girl and man warming up by the fire ",48334,"10676.89999999106","Uninterrupted","Corn"
"typing-period",56,1182097,"2843.4000000059605","continuous","f","corn","",48334,"12657","Uninterrupted","Corn"
"typing-period",58,1199830,"483382.00000038743","continuous","f","corn","girl and man leaving the island after the home is built ",48334,"2375.2000000029802","Uninterrupted","Corn"
"typing-period",60,1228394,"233223.19999974966","continuous","f","corn","girl removes scarf from head ",48334,"17901.39999999106","Uninterrupted","Corn"
"typing-period",62,1275384,"2179299.099999249","continuous","f","corn","girl assists man by holding the latter as he climbs on toward the roof of the home ",48334,"17229.79999999702","Uninterrupted","Corn"
"typing-period",64,1304665,"1454549.5999999642","continuous","f","corn","man and girl come back to home wwith more o",48334,"1913.2999999970198","Uninterrupted","Corn"
"typing-period",75,1928328,"54499.79999996722","continuous","f","iron","hair is cut",48334,"1839.6000000089407","Uninterrupted","3Iron"
"typing-period",77,1939535,"25689.899999946356","continuous","f","iron","man takes bath",48334,"6810.4000000059605","Uninterrupted","3Iron"
"typing-period",79,1947804,"28730.400000035763","continuous","f","iron","girl takes bath",48334,"2345","Uninterrupted","3Iron"
"typing-period",81,1968982,"129898.29999989271","continuous","f","iron","man takes photo of himself in home",48334,"11041.90000000596","Uninterrupted","3Iron"
"typing-period",83,1986665,"589416.2000001669","continuous","f","iron","girl notices man in home when he opens the closet",48334,"1751.699999988079","Uninterrupted","3Iron"
"typing-period",85,1995053,"35533.599999934435","continuous","f","iron","hair is cut",48334,"4527.600000008941","Uninterrupted","3Iron"
"typing-period",87,2012107,"301227.5000002533","continuous","f","iron","girl shows up on security camera",48334,"2346.0999999940395","Uninterrupted","3Iron"
"typing-period",89,2029744,"162125.999999851","continuous","f","iron","girl and guy go on motorcycle ",48334,"4511.5","Uninterrupted","3Iron"
"typing-period",91,2041567,"242806.9999998361","continuous","f","iron","guy hits golf ball attached to tree",48334,"819.7000000029802","Uninterrupted","3Iron"
"typing-period",93,2059940,"397041.5999996513","continuous","f","iron","guy picks out pink outfit for girl ",48334,"5290.100000008941","Uninterrupted","3Iron"
"typing-period",95,2065712,"1618.7000000029802","continuous","f","iron","",48334,"4150.5","Uninterrupted","3Iron"
"typing-period",97,2079913,"358510.39999981225","continuous","f","iron","guy seems family coming home through window",48334,"2385.7999999970198","Uninterrupted","3Iron"
"typing-period",99,2110808,"2092449.4999995977","continuous","f","iron","guy hands girl food then waters plant with spray bottle while looking lovingly at girl ",48334,"911.8999999910593","Uninterrupted","3Iron"
"typing-period",101,2118372,"744.6000000089407","continuous","f","iron","",48334,"6816.300000011921","Uninterrupted","3Iron"
"typing-period",103,2125925,"70306.29999996722","continuous","f","iron","guy chops peppers",48334,"1847.8999999910593","Uninterrupted","3Iron"
"typing-period",105,2146976,"347982.2000003457","continuous","f","iron","guy takes off take out menu from doors",48334,"6814.5","Uninterrupted","3Iron"
"typing-period",107,2195307,"3736540.1999994367","continuous","f","iron","photo of woman turns into disordered cubed segments of original photo",48334,"4736","Uninterrupted","3Iron"
"typing-period",109,2213124,"597876.6999999881","continuous","f","iron","girl stares at photo of naked woman on the wall",48334,"1437.300000011921","Uninterrupted","3Iron"
"typing-period",111,2219138,"null","continuous","f","iron","",48334,"null","Uninterrupted","3Iron"
"typing-period",28,1050643,"102862837.99995697","continuous","f","corn","the man rowed his boat through the water to get to this tiny island. he starts unloading all of his supplies onto the land one piece by one piece. the objects include tree trunks or logs and wood planks. he then leaves the island. the next clip shows him in the same little boat rowing but this time he is with a younger girl who may be his daughter of granddaughter. they exit the boat and she examines the mini island with the framed wood the man had already set up the day before. shen then assists the man in unloading more supplies from the boat. he starts up his construction once again and the girl hangs out by the water. a military boat then passes them and you can tell there is some sort of tension going on between the two parties. they continue to work on the house. ",49546,"1544.2000000476837","Uninterrupted","Corn"
"typing-period",30,1059982,"4753.600000023842","continuous","f","corn","",49546,"4582.400000095367","Uninterrupted","Corn"
"typing-period",32,1061779,"544.6000000238419","continuous","f","corn","",49546,"1251.2999999523163","Uninterrupted","Corn"
"typing-period",34,1131150,"null","continuous","f","corn","",49546,"null","Uninterrupted","Corn"
"typing-period",45,1999078,"150954734.59999967","continuous","f","iron","the man got off of his motorcycle and seemed to look a bit shady. he then got into an apartment. it was hard to tell whether he was supposed to be there or not (ie was he cleaning for the owners? is he the owner? does he know the owners?) it was very odd. the man then leaves the apartment building once he sees a family getting out of their cars. while he was in the apartment, he showered, cleaned, did laundry and even ate some of the food that was there. when he left, he rode his motorcycle to a different house and he also looked suspicious there. when he began walking around and looking around the house, a woman who had been beaten was hiding from him while he ate. it then seems like the two people knew each other in some capacity and they begin to do things around the house and outside together. the woman then cut her hair and they took pcitures otgether in front of a picture on the wall",49546,"1455.5","Uninterrupted","3Iron"
"typing-period",47,2002149,"1802.1000000238419","continuous","f","iron","",49546,"1267.0999999046326","Uninterrupted","3Iron"
"typing-period",49,2032820,"null","continuous","f","iron","",49546,"null","Uninterrupted","3Iron"
"typing-period",30,1017191,"48066984.899985075","continuous","f","corn","There was first 1 man who was paddling across the river with wooden planks. Then he unloaded the boat and started building a house. Then, a woman came with him to help him build the house. They unloaded more and started to attach the different wood pieces together. Then a boat with military people was nearby and the man had his head down. Then the man and woman ate lunch. Then they continued building and paddling back and forth to get materials. ",51184,"2255.600000023842","Uninterrupted","Corn"
"typing-period",32,1034197,"397667.7000017166","continuous","f","corn","It was also a very sunny day.",51184,"3596.7000000476837","Uninterrupted","Corn"
"typing-period",34,1158024,"null","continuous","f","corn","",51184,"null","Uninterrupted","Corn"
"typing-period",45,1812673,"353542.6999987364","continuous","f","iron","There was a man who drove a motorcycle. ",51184,"3102","Uninterrupted","3Iron"
"typing-period",47,1841677,"1850277.899999857","continuous","f","iron","Then he picked the lock to get inside the apartment",51184,"1146.1000000238419","Uninterrupted","3Iron"
"typing-period",49,1850249,"176459.89999878407","continuous","f","iron","Then he tries to find a woman. ",51184,"798.8999999761581","Uninterrupted","3Iron"
"typing-period",51,1856223,"68925.79999947548","continuous","f","iron","He takes a shower. ",51184,"1081.3999999761581","Uninterrupted","3Iron"
"typing-period",53,1862853,"75915.59999883175","continuous","f","iron","He fixes the scale. ",51184,"1512.5","Uninterrupted","3Iron"
"typing-period",55,1871121,"163477.40000200272","continuous","f","iron","Then he cooks for the woman.",51184,"767.1000000238419","Uninterrupted","3Iron"
"typing-period",57,1883031,"413583.7000038624","continuous","f","iron","Then he and the woman go outside to another apartment",51184,"753.5","Uninterrupted","3Iron"
"typing-period",59,1892076,"218371.10000240803","continuous","f","iron","The man fixes a radio and also a clock.",51184,"814","Uninterrupted","3Iron"
"typing-period",61,1904633,"363525.6999974251","continuous","f","iron","A woman rings the doorbell then goes away. ",51184,"674.6000000238419","Uninterrupted","3Iron"
"typing-period",63,1917492,"500559.5999982357","continuous","f","iron","he cooked for himself at the first apartment",51184,"1254.7999999523163","Uninterrupted","3Iron"
"typing-period",65,1933305,"759296.7000049353","continuous","f","iron","he watches the woman eat at the second apartment while he waters the plants.",51184,"784.6000000238419","Uninterrupted","3Iron"
"typing-period",67,1964106,"2771.899999976158","continuous","f","iron"," ",51184,"29092.899999976158","Uninterrupted","3Iron"
"typing-period",69,1971716,"167902.60000097752","continuous","f","iron"," he also gives the woman a haircut.",51184,"900.2999999523163","Uninterrupted","3Iron"
"typing-period",71,1978878,"99881.89999997616","continuous","f","iron","the woman also takes a shower.",51184,"1099.5999999046326","Uninterrupted","3Iron"
"typing-period",73,2006904,"1226965.300006032","continuous","f","iron","The woman was at first just watching the man in the first apartment. she also had  bruises on her face.",51184,"8369.800000071526","Uninterrupted","3Iron"
"typing-period",75,2095871,"null","continuous","f","iron","",51184,"null","Uninterrupted","3Iron"
"typing-period",32,941622,"348871.90000009537","continuous","f","iron","a man arrives to an apartment building on a motorcycle",51727,"2399.899999976158","Uninterrupted","3Iron"
"typing-period",34,955051,"575051.3999990225","continuous","f","iron","he takes off his helmet and grabs a backpack from the trunk",51727,"1294.8999999761581","Uninterrupted","3Iron"
"typing-period",36,967080,"287560.0000002384","continuous","f","iron","he goes up the stairs and picks the lock of an apartment",51727,"1742.5","Uninterrupted","3Iron"
"typing-period",38,981240,"340418.00000047684","continuous","f","iron","he took a shower",51727,"3011.099999964237","Uninterrupted","3Iron"
"typing-period",40,986893,"51200.69999957085","continuous","f","iron","he cooked himself food",51727,"1640.8999999761581","Uninterrupted","3Iron"
"typing-period",42,998273,"437051.3999991417","continuous","f","iron","once he saw a family arriving, he left and went to another house",51727,"1027.800000011921","Uninterrupted","3Iron"
"typing-period",44,1006837,"174869.1999989152","continuous","f","iron","there was a woman crying in one of the rooms",51727,"1346.800000011921","Uninterrupted","3Iron"
"typing-period",46,1015554,"196761.1000009179","continuous","f","iron","she looked like she had been beaten up ",51727,"670.9000000357628","Uninterrupted","3Iron"
"typing-period",48,1024371,"189937.99999952316","continuous","f","iron","he took a bath and cooked himself food",51727,"1535.5","Uninterrupted","3Iron"
"typing-period",50,1030937,"126226.00000059605","continuous","f","iron","the woman took a shower",51727,"722.4000000357628","Uninterrupted","3Iron"
"typing-period",52,1039930,"292448.60000014305","continuous","f","iron","he left clothes layed out for her to wear",51727,"418.80000001192093","Uninterrupted","3Iron"
"typing-period",54,1046108,"89741.19999986887","continuous","f","iron","she got on the back of the motorcycle",51727,"874","Uninterrupted","3Iron"
"typing-period",56,1051316,"56967.200000703335","continuous","f","iron","they went to another house ",51727,"662.1999999880791","Uninterrupted","3Iron"
"typing-period",58,1059068,"136995.30000007153","continuous","f","iron","he cooked her food and watered the plants",51727,"1865.2000000476837","Uninterrupted","3Iron"
"typing-period",60,1080258,"1276886.8999987245","continuous","f","iron","he/they took pictures with photographs at each of the homes",51727,"683.8999999761581","Uninterrupted","3Iron"
"typing-period",62,1091063,"186337.29999995232","continuous","f","iron","she handed him scissors and he cut her hair",51727,"3797","Uninterrupted","3Iron"
"typing-period",64,1097095,"69181.89999961853","continuous","f","iron","he took apart the scale",51727,"1213.2999999523163","Uninterrupted","3Iron"
"typing-period",66,1106309,"185266.20000123978","continuous","f","iron","he took apart/fixed the clock",51727,"644.6999999880791","Uninterrupted","3Iron"
"typing-period",68,1115703,"193485.39999884367","continuous","f","iron","he took apart/fixed the speaker",51727,"730.3999999761581","Uninterrupted","3Iron"
"typing-period",70,1137446,"35209.90000027418","continuous","f","iron","she wore a pink dress",51727,"16490.899999976158","Uninterrupted","3Iron"
"typing-period",72,1148381,"193528.400000453","continuous","f","iron","he played golf with a ball tied around a tree",51727,"3935.800000011921","Uninterrupted","3Iron"
"typing-period",74,1156410,"90254.70000004768","continuous","f","iron","she looked afraid the whole time",51727,"2966.800000011921","Uninterrupted","3Iron"
"typing-period",76,1172279,"584263.9999990463","continuous","f","iron","he took flyers off of every home he went into",51727,"2992.699999988079","Uninterrupted","3Iron"
"typing-period",78,1208524,"551901.7999996543","continuous","f","iron","they took a photo in front of a photograph of a man with boxing gloves",51727,"23086.19999998808","Uninterrupted","3Iron"
"typing-period",80,1221584,"87703.10000103712","continuous","f","iron","they traveled by motorcycle",51727,"7922.5","Uninterrupted","3Iron"
"typing-period",82,1228453,"null","continuous","f","iron","",51727,"null","Uninterrupted","3Iron"
"typing-period",93,1832414,"225734.79999941587","continuous","f","corn","the man was rowing on a boat  alone",51727,"816","Uninterrupted","Corn"
"typing-period",95,1843957,"302461.0000013709","continuous","f","corn","he arrived to a place with a white flag hanging on a pole",51727,"1002.1999999880791","Uninterrupted","Corn"
"typing-period",97,1850926,"100620.39999961853","continuous","f","corn","he started unloading the boat",51727,"1037.5","Uninterrupted","Corn"
"typing-period",99,1863312,"390485.60000157356","continuous","f","corn","he unloaded the wood and the tools",51727,"955.4000000357628","Uninterrupted","Corn"
"typing-period",101,1868648,"46646.700000822544","continuous","f","corn","he started building the hut",51727,"1853","Uninterrupted","Corn"
"typing-period",103,1876062,"166635.4999998808","continuous","f","corn","he left and came back with a young girl ",51727,"978.3000000119209","Uninterrupted","Corn"
"typing-period",105,1882106,"89888.70000088215","continuous","f","corn","the girl was holding a doll",51727,"514.8999999761581","Uninterrupted","Corn"
"typing-period",107,1889323,"142790.0999993086","continuous","f","corn","they unloaded more materials together",51727,"827.3000000119209","Uninterrupted","Corn"
"typing-period",109,1895820,"70610.69999963045","continuous","f","corn","she helped him build the hut",51727,"980.1999999880791","Uninterrupted","Corn"
"typing-period",111,1906620,"308549.80000013113","continuous","f","corn","she started eating food, and then he joined her",51727,"846.6999999880791","Uninterrupted","Corn"
"typing-period",113,1914675,"127405.09999907017","continuous","f","corn","he smiled when she drank from the jug ",51727,"2090.099999964237","Uninterrupted","Corn"
"typing-period",115,1925240,"215658.5999996662","continuous","f","corn","they used a wooden ladder to get to the roof",51727,"2801.5","Uninterrupted","Corn"
"typing-period",117,1933742,"134406.3000009656","continuous","f","corn","three military men on a boat drove by",51727,"1444.3999999761581","Uninterrupted","Corn"
"typing-period",119,1951975,"976437.3000001311","continuous","f","corn","the girl went over to the man when the military men drove by and she sat on the log he was sawing ",51727,"572","Uninterrupted","Corn"
"typing-period",121,1968853,"121423.89999955893","continuous","f","corn","they left and brought back roofing ",51727,"10200.300000011921","Uninterrupted","Corn"
"typing-period",123,1975205,"100275.40000003576","continuous","f","corn","the girl helped him build the roof",51727,"957.6999999880791","Uninterrupted","Corn"
"typing-period",125,1984526,"174376.89999949932","continuous","f","corn","he put a lock on the door and locked it ",51727,"439.30000001192093","Uninterrupted","Corn"
"typing-period",127,1991741,"177262.70000106096","continuous","f","corn","they looked at the hut as they drove away",51727,"505.19999998807907","Uninterrupted","Corn"
"typing-period",129,1999693,"230843.10000002384","continuous","f","corn","the girl was playing in the water while he built the hut",51727,"478.30000001192093","Uninterrupted","Corn"
"typing-period",131,2013205,"273383.4999989867","continuous","f","corn","the girl washed her knees in the water ",51727,"553.3000000119209","Uninterrupted","Corn"
"typing-period",133,2020112,"139139.69999969006","continuous","f","corn","the water was foggy in the distance ",51727,"1000.1000000238419","Uninterrupted","Corn"
"typing-period",135,2071348,"567035.2999998927","continuous","f","corn","the girl split the cheese in half for the man",51727,"36298.5","Uninterrupted","Corn"
"typing-period",137,2088713,"71449.5","continuous","f","corn","the man tied the boat to a pole",51727,"11564.299999952316","Uninterrupted","Corn"
"typing-period",139,2101682,"378314.1999986172","continuous","f","corn","the man was cutting up wood at the beginning",51727,"959.6999999880791","Uninterrupted","Corn"
"typing-period",141,2123247,"null","continuous","f","corn","",51727,"null","Uninterrupted","Corn"
"typing-period",34,1095583,"126910","continuous","c","corn","Man rows to deserted inlet",52327,"7838","Uninterrupted","Corn"
"typing-period",36,1113821,"372888","continuous","c","corn","Man drives stakes into ground for house foundation",52327,"4311","Uninterrupted","Corn"
"typing-period",38,1128508,"203424","continuous","c","corn","Man rows back and brings younger girl",52327,"2547","Uninterrupted","Corn"
"typing-period",40,1149903,"584691","continuous","c","corn","Girl waits as man builds foundation and plays with wooden planks",52327,"2371","Uninterrupted","Corn"
"typing-period",42,1173533,"874593","continuous","c","corn","Military soldiers in motorized boat move past the man and girl.",52327,"1607","Uninterrupted","Corn"
"typing-period",44,1197381,"766953","continuous","c","corn","Girl assists in construction by moving planks and tools",52327,"1658","Uninterrupted","Corn"
"typing-period",46,1210512,"248372","continuous","c","corn","Man and girl share dinner with bread and jam",52327,"979","Uninterrupted","Corn"
"typing-period",48,1223945,"132812","continuous","c","corn","Man and girl bond over fireplace",52327,"999","Uninterrupted","Corn"
"typing-period",50,1236455,"258467","continuous","c","corn","Man and girl lay down to rest under the house foundation",52327,"986","Uninterrupted","Corn"
"typing-period",52,1264500,"200280","continuous","c","corn","Man hammers planks to make walls of house",52327,"16737","Uninterrupted","Corn"
"typing-period",54,1280125,"344989","continuous","c","corn","Man and girl bring straw to use as a roof of the house",52327,"1294","Uninterrupted","Corn"
"typing-period",56,1296866,"291985","continuous","c","corn","Man brings padlock to lock the house",52327,"2707","Uninterrupted","Corn"
"typing-period",58,1348388,"223130","continuous","c","corn","Man and girl leave completed house on boat",52327,"39731","Uninterrupted","Corn"
"typing-period",60,1370496,"147757","continuous","c","corn","Girl looks at fog in the distance",52327,"13112","Uninterrupted","Corn"
"typing-period",62,1379081,"null","continuous","c","corn","",52327,"null","Uninterrupted","Corn"
"typing-period",73,2027629,"62895","continuous","c","iron","Man breaks into apartment",52327,"3778","Uninterrupted","3Iron"
"typing-period",75,2034812,"157575","continuous","c","iron","The first apartment was that of a family",52327,"854","Uninterrupted","3Iron"
"typing-period",77,2049701,"368485","continuous","c","iron","Man looks around and takes a shower in foreign apartment",52327,"2487","Uninterrupted","3Iron"
"typing-period",79,2060373,"123573","continuous","c","iron","Man takes some food from refrigerator",52327,"2010","Uninterrupted","3Iron"
"typing-period",81,2074438,"306235","continuous","c","iron","Man picks up laundry from apartment and washes clothes",52327,"1619","Uninterrupted","3Iron"
"typing-period",83,2090922,"415604","continuous","c","iron","Man takes photo of himself with the apartment backdrop",52327,"1423","Uninterrupted","3Iron"
"typing-period",85,2106329,"183248","continuous","c","iron","Man leaves apartment as he sees family coming in",52327,"5289","Uninterrupted","3Iron"
"typing-period",87,2119571,"209361","continuous","c","iron","Man removes flyers from apartment peephole",52327,"1186","Uninterrupted","3Iron"
"typing-period",89,2130415,"108402","continuous","c","iron","Man breaks into a second apartment",52327,"2265","Uninterrupted","3Iron"
"typing-period",91,2142373,"227252","continuous","c","iron","The second apartment is luxuriously furnished",52327,"709","Uninterrupted","3Iron"
"typing-period",93,2156586,"346662","continuous","c","iron","Man unscrews scale to change his weight reading",52327,"1182","Uninterrupted","3Iron"
"typing-period",95,2164393,"133558","continuous","c","iron","Man takes bath in luxury apartment",52327,"770","Uninterrupted","3Iron"
"typing-period",97,2178161,"404413","continuous","c","iron","Woman sees man but stays hidden in luxury apartment",52327,"777","Uninterrupted","3Iron"
"typing-period",99,2187141,"204684","continuous","c","iron","Woman has bruises on face and appears abused",52327,"620","Uninterrupted","3Iron"
"typing-period",101,2198006,"320393","continuous","c","iron","Woman keeps eyeing the intruder in luxury apartment",52327,"694","Uninterrupted","3Iron"
"typing-period",103,2211045,"318611","continuous","c","iron","Woman cries in bathtub while man is there",52327,"776","Uninterrupted","3Iron"
"typing-period",105,2220010,"220064","continuous","c","iron","Woman joins man on his moped, fleeing home",52327,"683","Uninterrupted","3Iron"
"typing-period",107,2226740,"141129","continuous","c","iron","Woman and man break into a third apartment",52327,"726","Uninterrupted","3Iron"
"typing-period",109,2233755,"146263","continuous","c","iron","Third apartment decoreated with erotic imagery",52327,"622","Uninterrupted","3Iron"
"typing-period",111,2249015,"527392","continuous","c","iron","Woman tries to help with chores, is upset",52327,"673","Uninterrupted","3Iron"
"typing-period",113,2260874,"307813","continuous","c","iron","Woman sees herself in the photographs on the wall",52327,"1421","Uninterrupted","3Iron"
"typing-period",115,2272863,"341753","continuous","c","iron","Man makes nice dinner for woman while he continues cleaning apartment",52327,"1546","Uninterrupted","3Iron"
"typing-period",117,2289094,"712118","continuous","c","iron","Other woman visitor tries to knock but leaves after no response",52327,"812","Uninterrupted","3Iron"
"typing-period",119,2295067,"60991","continuous","c","iron","Man gives woman a haircut",52327,"1737","Uninterrupted","3Iron"
"typing-period",121,2306394,"381565","continuous","c","iron","Man and woman take photo together in front of a picture of a boxer",52327,"574","Uninterrupted","3Iron"
"typing-period",123,2316441,"248015","continuous","c","iron","Man and woman continue to use moped to get around",52327,"909","Uninterrupted","3Iron"
"typing-period",125,2316637,"null","continuous","c","iron","",52327,"null","Uninterrupted","3Iron"
"typing-period",32,1158848,"17325754.40000981","continuous","c","iron","I really did not understand the gist of this video. The man starts off cleaning one house that looks like it could be his own, then he goes to a higher class house where there is an injured woman. She stays with him for the rest of the clip and he even makes lunch for her but it is no defined if he is taking care of her or making up for possibly hurting her...",52591,"1475","Uninterrupted","3Iron"
"typing-period",34,1162993,"4299.699999988079","continuous","c","iron"," ",52591,"1836.3999999761581","Uninterrupted","3Iron"
"typing-period",36,1163618,"303.60000002384186","continuous","c","iron","",52591,"319.2000000476837","Uninterrupted","3Iron"
"typing-period",38,1164147,"253.39999997615814","continuous","c","iron","",52591,"273.4000000357628","Uninterrupted","3Iron"
"typing-period",40,1164696,"257.89999997615814","continuous","c","iron","",52591,"288.9000000357628","Uninterrupted","3Iron"
"typing-period",42,1166260,"266.19999998807907","continuous","c","iron","",52591,"1295.0999999642372","Uninterrupted","3Iron"
"typing-period",44,1249588,"null","continuous","c","iron","",52591,"null","Uninterrupted","3Iron"
"typing-period",55,2166281,"6978558.90000546","continuous","c","corn","in this video there is an older man who is tryin to build a home with a young woman in the middle of nowhere. they work as a team to build a home from scratch and they eat together and travel on a mini rowing boat as well. ",52591,"6173.299999952316","Uninterrupted","Corn"
"typing-period",38,916994,"26640.900000028312","continuous","f","iron","asian man ",53890,"1624.1000000014901","Uninterrupted","3Iron"
"typing-period",40,919598,"18931.09999999404","continuous","f","iron","asian woman",53890,"307.70000000298023","Uninterrupted","3Iron"
"typing-period",42,926336,"99725.99999999255","continuous","f","iron","they ate rice",53890,"199.09999999403954","Uninterrupted","3Iron"
"typing-period",44,938147,"206091.50000008196","continuous","f","iron","he unlocked a door",53890,"778.1999999955297","Uninterrupted","3Iron"
"typing-period",46,955020,"324193.2000000477","continuous","f","iron"," he answered the phone ",53890,"2533.7000000029802","Uninterrupted","3Iron"
"typing-period",48,971611,"419751.60000009835","continuous","f","iron","they were fixing a radio",53890,"323.5","Uninterrupted","3Iron"
"typing-period",50,1212649,"null","continuous","f","iron","",53890,"717.7000000029802","Uninterrupted","3Iron"
"typing-period",61,1833791,"201148.20000000298","continuous","f","corn","a young girl and a man are on a little island",53890,"2813.7000000029802","Uninterrupted","Corn"
"typing-period",63,1842769,"173189.40000000596","continuous","f","corn","they are building a house",53890,"663","Uninterrupted","Corn"
"typing-period",65,1855367,"281416.2999999076","continuous","f","corn","they ate lunch at a table",53890,"567.6999999955297","Uninterrupted","Corn"
"typing-period",67,1863255,"112597.60000002384","continuous","f","corn","they ate bread ",53890,"368.90000000596046","Uninterrupted","Corn"
"typing-period",69,1866958,"24971.899999976158","continuous","f","corn","they ate jam",53890,"385.8999999985099","Uninterrupted","Corn"
"typing-period",71,1873081,"91049.0000000894","continuous","f","corn","the girl frank water",53890,"311.79999999701977","Uninterrupted","Corn"
"typing-period",73,1881598,"248344.90000006557","continuous","f","corn","they are collecting tinder to make a fire",53890,"192.5","Uninterrupted","Corn"
"typing-period",75,1885300,"38254.69999999553","continuous","f","corn","they have a boat",53890,"332.20000000298023","Uninterrupted","Corn"
"typing-period",77,1888625,"28596.500000029802","continuous","f","corn","they are friends",53890,"181","Uninterrupted","Corn"
"typing-period",79,1903583,"564535.8000001162","continuous","f","corn","they have slabs of wood to make the house",53890,"248","Uninterrupted","Corn"
"typing-period",81,1913147,"272377.0999998301","continuous","f","corn","the man goes up on a ladder to build s roof",53890,"530.2999999970198","Uninterrupted","Corn"
"typing-period",83,2058804,"8574888.800000198","continuous","f","corn","the girl put her feet in the water with her rubber boots",53890,"177.5","Uninterrupted","Corn"
"typing-period",85,2123720,"null","continuous","f","corn","",53890,"1434.3999999985099","Uninterrupted","Corn"
"typing-period",34,769735,"178145.49999958277","continuous","c","corn","A man rows into a beach on a boat",54994,"1022.8000000119209","Uninterrupted","Corn"
"typing-period",36,775328,"76949.99999970198","continuous","c","corn","No one else is on the beach",54994,"467.59999999403954","Uninterrupted","Corn"
"typing-period",38,789749,"364287.09999999404","continuous","c","corn","He starts collecting wood and trying to build something",54994,"771.8000000119209","Uninterrupted","Corn"
"typing-period",40,797992,"17033.000000029802","continuous","c","corn","He rows away",54994,"5670.9000000059605","Uninterrupted","Corn"
"typing-period",42,809935,"347990.50000038743","continuous","c","corn","He comes back with his daughter presumably or a young girl",54994,"468.10000002384186","Uninterrupted","Corn"
"typing-period",44,822082,"334290.400000751","continuous","c","corn","She starts helping him build what looks like a house",54994,"374.40000000596046","Uninterrupted","Corn"
"typing-period",46,833085,"255355.90000015497","continuous","c","corn","Military officials in a boat go by",54994,"912.8999999761581","Uninterrupted","Corn"
"typing-period",48,839809,"124826.09999999404","continuous","c","corn","The girl and her dad leave for the night",54994,"955.6999999880791","Uninterrupted","Corn"
"typing-period",50,845118,"96203.60000041127","continuous","c","corn","They come back and continue building",54994,"315.09999999403954","Uninterrupted","Corn"
"typing-period",52,854122,"262350.50000071526","continuous","c","corn","They take a break and eat jam and bread and cheese",54994,"428.09999999403954","Uninterrupted","Corn"
"typing-period",54,862816,"160384.80000004172","continuous","c","corn","They finish building the house and insulate it",54994,"2172.5999999940395","Uninterrupted","Corn"
"typing-period",56,868952,"89870.20000013709","continuous","c","corn","They lock it and row away",54994,"551.4000000059605","Uninterrupted","Corn"
"typing-period",58,1060632,"null","continuous","c","corn","",54994,"null","Uninterrupted","Corn"
"typing-period",69,1668487,"88791.2999997437","continuous","c","iron","A man rides up on a motorcycle",54994,"778","Uninterrupted","3Iron"
"typing-period",71,1683494,"443924.50000038743","continuous","c","iron","He breaks into someone's apartment and fixes their peep hole",54994,"310.80000001192093","Uninterrupted","3Iron"
"typing-period",73,1702623,"980814.1999986768","continuous","c","iron","He goes in and uses their facilities like their food and bath and fixes things around",54994,"622","Uninterrupted","3Iron"
"typing-period",75,1713998,"186659.89999991655","continuous","c","iron","He corrects a broken scale",54994,"277.2999999821186","Uninterrupted","3Iron"
"typing-period",77,1730342,"408493.9000003338","continuous","c","iron","He does laundrey and takes a pictrue there",54994,"361.90000000596046","Uninterrupted","3Iron"
"typing-period",79,1753385,"651674.1000000834","continuous","c","iron","He goes into another hsue where a young woman watches him",54994,"7880.5","Uninterrupted","3Iron"
"typing-period",81,1762000,"293285.80000036955","continuous","c","iron","She looks like she has been abused by someone and has many bruises",54994,"370.59999999403954","Uninterrupted","3Iron"
"typing-period",83,1770475,"115655.39999991655","continuous","c","iron","They leave togrther",54994,"664.9000000059605","Uninterrupted","3Iron"
"typing-period",85,1787178,"765494.1000012159","continuous","c","iron","They both go into another place and she does laundry, he makes food, etc, he fixes their stereo",54994,"228.7000000178814","Uninterrupted","3Iron"
"typing-period",87,1798641,"207205.29999998212","continuous","c","iron","She gets her hair cut by him",54994,"500.90000000596046","Uninterrupted","3Iron"
"typing-period",89,1807782,"197090.30000022054","continuous","c","iron","They go to a park and he plays golf with himseld ",54994,"1050.7000000178814","Uninterrupted","3Iron"
"typing-period",91,1816697,"171231.7000002563","continuous","c","iron","The last place they go has punching gloves",54994,"1074.5","Uninterrupted","3Iron"
"typing-period",93,1825206,"176766.7000001669","continuous","c","iron","They take a picture, and leave",54994,"235.19999998807907","Uninterrupted","3Iron"
"typing-period",95,1962588,"null","continuous","c","iron","",54994,"null","Uninterrupted","3Iron"
"typing-period",34,2480590,"790034.4000034332","continuous","f","iron","a guy on a motorbike gets off his bike and goes into the apartment",55006,"1951","Uninterrupted","3Iron"
"typing-period",36,2500755,"472739.9999985695","continuous","f","iron","then he washes up and washes his clothes ",55006,"2130.7999999523163","Uninterrupted","3Iron"
"typing-period",38,2524010,"955642.8000018597","continuous","f","iron","then he looks out the window to see a family coming out of their car",55006,"1629.1000000238419","Uninterrupted","3Iron"
"typing-period",40,2539144,"451150.2999982834","continuous","f","iron","then he goes to another place and looks around.",55006,"742.5","Uninterrupted","3Iron"
"typing-period",42,2575130,"2305689.7999970913","continuous","f","iron","the girl hides from the guy but then he goes with her to another place where she washes the clothes and eats",55006,"1280.5","Uninterrupted","3Iron"
"typing-period",44,2663420,"16517640.799992085","continuous","f","iron","the guy fixes the scale from pounds to kilograms and he leaves her clothes out before they go out on motorbike",55006,"979.8000000715256","Uninterrupted","3Iron"
"typing-period",46,2688992,"875815.9999983311","continuous","f","iron","they go to a house where he fixes the clock and checks the answering machine. ",55006,"1222.3999999761581","Uninterrupted","3Iron"
"typing-period",48,2751884,"784777.8000020981","continuous","f","iron","she is abused because she has a swollen lip and black eye",55006,"45151.5","Uninterrupted","3Iron"
"typing-period",50,2760894,"null","continuous","f","iron","",55006,"null","Uninterrupted","3Iron"
"typing-period",61,3376386,"905728.5999982357","continuous","f","corn","a man is rowing in the river and stops to unload his canoe",55006,"1771","Uninterrupted","Corn"
"typing-period",63,3409189,"1504287.5","continuous","f","corn","he puts up 4 posts which appear to be a building",55006,"966.7000000476837","Uninterrupted","Corn"
"typing-period",65,3440673,"1560503.699997425","continuous","f","corn"," he then comes back with a young girl. they both unload the canoe that he rowed",55006,"1110.9000000953674","Uninterrupted","Corn"
"typing-period",67,3464107,"1019266.9999958277","continuous","f","corn","they unload the canoe and he starts building the walls  ",55006,"793.5","Uninterrupted","Corn"
"typing-period",69,3513259,"3977697.4999923706","continuous","f","corn","during sawing a piece of wood, 3 guys come by boat with rifles",55006,"794.5","Uninterrupted","Corn"
"typing-period",71,3551365,"2454460.7000026703","continuous","f","corn","they acknowledge the men with the rifles but this isn't an issue. ",55006,"1327.7999999523163","Uninterrupted","Corn"
"typing-period",73,3585480,"2529482.9000000954","continuous","f","corn","the man hands the hammer to the girl and he removes the ladder  ",55006,"921.3000000715256","Uninterrupted","Corn"
"typing-period",75,3611609,"1256990.3000022173","continuous","f","corn","he builds a fire and they have cheese sandwich and jam    and water ",55006,"1032.1000000238419","Uninterrupted","Corn"
"typing-period",77,3630142,"361612.1000022888","continuous","f","corn","then they take a nap.    ",55006,"811","Uninterrupted","Corn"
"typing-period",79,3646071,"608013.6999965906","continuous","f","corn","the next time they return with roofing material and build the roof",55006,"806","Uninterrupted","Corn"
"typing-period",81,3648487,"1319","continuous","f","corn"," ",55006,"850.5999999046326","Uninterrupted","Corn"
"typing-period",34,978676,"215032.69999997318","continuous","f","corn","the man is rowing to an island ",55144,"2419.2000000029802","Uninterrupted","Corn"
"typing-period",36,988552,"197885.80000012368","continuous","f","corn","the man brings tools and wood to the island ",55144,"1765.1000000014901","Uninterrupted","Corn"
"typing-period",38,1003460,"501183.5999999866","continuous","f","corn","the man starts working on building the structure for the house",55144,"1664.2000000029802","Uninterrupted","Corn"
"typing-period",40,1009560,"77931.399999924","continuous","f","corn","the man rows back with a girl",55144,"1241.1999999955297","Uninterrupted","Corn"
"typing-period",42,1026874,"791865.6000002772","continuous","f","corn","the girl doesn't seem like she wants to help at first and goes to play",55144,"914.8999999985099","Uninterrupted","Corn"
"typing-period",44,1041220,"408740.50000015646","continuous","f","corn","the boat of soldiers pass them in a boat  ",55144,"434.29999999701977","Uninterrupted","Corn"
"typing-period",46,1056010,"680558.5999999866","continuous","f","corn","the girl starts to eat and eventually shares her food with the old man ",55144,"975.7000000029802","Uninterrupted","Corn"
"typing-period",48,1061686,"63777.59999999404","continuous","f","corn","they build a fire together ",55144,"870.9000000059605","Uninterrupted","Corn"
"typing-period",50,1072870,"359190.9000000134","continuous","f","corn","the girl and the old man work together to build the house",55144,"426","Uninterrupted","Corn"
"typing-period",52,1079119,"91074.00000000745","continuous","f","corn","the girl washes her legs",55144,"511.70000000298023","Uninterrupted","Corn"
"typing-period",54,1092522,"498047.7999998778","continuous","f","corn","the girl goes with the boat to get more supplies",55144,"711.6999999955297","Uninterrupted","Corn"
"typing-period",56,1104666,"382105.9000001028","continuous","f","corn","the girl and the old man start building the roof with hay",55144,"1028.5","Uninterrupted","Corn"
"typing-period",58,1114002,"245427.99999979883","continuous","f","corn","the old man leaves his tools in the house",55144,"484.3999999985099","Uninterrupted","Corn"
"typing-period",60,1119699,"72018.9999999404","continuous","f","corn","the old man and the girl row awar",55144,"1186.6999999955297","Uninterrupted","Corn"
"typing-period",62,1267754,"null","continuous","f","corn","",55144,"null","Uninterrupted","Corn"
"typing-period",73,1904135,"251443.000000149","continuous","f","iron","a guy drives a motorcycle to a parking lot",55144,"1767.2000000029802","Uninterrupted","3Iron"
"typing-period",75,1911656,"113888.29999998212","continuous","f","iron","he unpacks his bag",55144,"785","Uninterrupted","3Iron"
"typing-period",77,1917947,"90688.10000011325","continuous","f","iron","he enters an apartment building",55144,"835.8000000044703","Uninterrupted","3Iron"
"typing-period",79,1922712,"52668.400000073016","continuous","f","iron","the guy picks the lock ",55144,"429.3999999985099","Uninterrupted","3Iron"
"typing-period",81,1929057,"103670.40000008047","continuous","f","iron","he gets comfy in the apartment ",55144,"502.6000000014901","Uninterrupted","3Iron"
"typing-period",83,1939357,"362518.4000002295","continuous","f","iron","he takes a shower, eats the food, starts cleaning, fixing things ",55144,"285.69999999552965","Uninterrupted","3Iron"
"typing-period",85,1951453,"452705.8999997452","continuous","f","iron","he takes pictures of himself around the apartment ",55144,"379.19999999552965","Uninterrupted","3Iron"
"typing-period",87,1965306,"583646.4000002295","continuous","f","iron","the family that owns the apartment arrives in the parking lot",55144,"679.8999999985099","Uninterrupted","3Iron"
"typing-period",89,1972455,"164877.19999989122","continuous","f","iron","the man leaves the apartment",55144,"382.3999999985099","Uninterrupted","3Iron"
"typing-period",91,1981422,"254531.19999991357","continuous","f","iron","the man gets on his motorcycle and drives to the next place ",55144,"795.2000000029802","Uninterrupted","3Iron"
"typing-period",93,1986468,"76602.20000002533","continuous","f","iron","the man enters this new house ",55144,"474.5","Uninterrupted","3Iron"
"typing-period",95,1994677,"205388.50000006706","continuous","f","iron","there is a girl there who is hiding from him",55144,"266.30000000447035","Uninterrupted","3Iron"
"typing-period",97,2013917,"1069856.6999996752","continuous","f","iron","the man starts eating, showering, cleaning and fixing things while she watches ",55144,"416.6000000014901","Uninterrupted","3Iron"
"typing-period",99,2016714,"20398.29999998957","continuous","f","iron","she is abused",55144,"520.8999999985099","Uninterrupted","3Iron"
"typing-period",101,2031545,"585096.2000001147","continuous","f","iron","the man leaves her clothes for her to wear",55144,"332.80000000447035","Uninterrupted","3Iron"
"typing-period",103,2039612,"205667.00000000745","continuous","f","iron","she puts the clothes on and decides to come with him ",55144,"1102.8000000044703","Uninterrupted","3Iron"
"typing-period",105,2053100,"607699.9999998361","continuous","f","iron","the man and the girl go to the next house with a camera",55144,"500.69999999552965","Uninterrupted","3Iron"
"typing-period",107,2069025,"742977.0999997109","continuous","f","iron","the girl starts doing what he does, eating, cleaning, fixing, and taking pictures ",55144,"772.8999999985099","Uninterrupted","3Iron"
"typing-period",109,2193306,"null","continuous","f","iron","",55144,"null","Uninterrupted","3Iron"
"typing-period",44,1038639,"237060.2000002861","continuous","c","corn","man and woman on a lone island",55819,"3659.399999976158","Uninterrupted","Corn"
"typing-period",46,1045018,"52505.8000010252","continuous","c","corn","fend for themselves",55819,"1681.2999999523163","Uninterrupted","Corn"
"typing-period",48,1050445,"41798.7000002861","continuous","c","corn","build shelter",55819,"1006.6000000238419","Uninterrupted","Corn"
"typing-period",50,1058329,"122640.29999935627","continuous","c","corn","make fire and food",55819,"678.7000000476837","Uninterrupted","Corn"
"typing-period",52,1242097,"45579.799999952316","continuous","c","corn"," ",55819,"140609.10000002384","Uninterrupted","Corn"
"typing-period",54,1246521,"1891.2000000476837","continuous","c","corn","",55819,"2531.100000023842","Uninterrupted","Corn"
"typing-period",56,1324137,"null","continuous","c","corn","",55819,"null","Uninterrupted","Corn"
"typing-period",67,1941952,"24121.29999923706","continuous","c","iron","man and woman ",55819,"3518.7000000476837","Uninterrupted","3Iron"
"typing-period",69,1947062,"19742.799999713898","continuous","c","iron","asian",55819,"1385.3999999761581","Uninterrupted","3Iron"
"typing-period",71,1951686,"37745.00000059605","continuous","c","iron","asian food",55819,"432.6999999284744","Uninterrupted","3Iron"
"typing-period",73,2234855,"null","continuous","c","iron","",55819,"null","Uninterrupted","3Iron"
"typing-period",28,1067368,"32530256.99999999","continuous","c","corn","An old man and a young girl live in an abandoned island surrounded by water. They use a boat to get by and they use fire to cook their food. They shower using the water around the island. However, they're not alone. There are men wearing military clothes that have passed by them on their own boat. Throughout the video, the man and the girl were building a house. It started off with just 4 planks of wood on the floor and slowly, the man started to finish the house and by the end of the movie, it was finished.",57592,"4103","Uninterrupted","Corn"
"typing-period",39,1983019,"202023274","continuous","c","iron","So the clip started off with a guy on a motorcycle entering an apartment that does not seem to be his because he had to pick the lock to get in. He makes himself at home and showers, eats, cleans his clothes, and then he looks out the window an sees a family exiting their car and he leaves the apartment. He then goes back on his motorcycle to a house where a woman is. The woman has bruises and cuts on her face and there seems to be tension between the man and the woman. They leave to a park where the man ties a golf ball to a wire hanger and plays 'Golf' And scares a man nearby because the man thought the ball was going to hit him. After playing golf at the park, the man and the woman go to another house where the woman sees a photo an rearranges it and the man notices. They have dinner and the man takes some pictures of the rearranged photo. They leave and go to another house. The woman sees scissors and gestures to the man, asking him to cut her hair. He agrees to cut her hair and does so. The woman now has shorter hair and they eat at some point. The man had set down a pink dress for the woman to wear. Somewhere near the ending, they take a picture together with a painting behind them",57592,"2019","Uninterrupted","3Iron"
"typing-period",41,1989071,"7440","continuous","c","iron","",57592,"3688","Uninterrupted","3Iron"
"typing-period",36,996151,"372899.8999999687","continuous","c","corn","old man finds space to build house",60010,"1840.0999999977648","Uninterrupted","Corn"
"typing-period",38,1009686,"279925.59999996796","continuous","c","corn","old man comes back with a girl on the little land ",60010,"1282.5","Uninterrupted","Corn"
"typing-period",40,1021913,"336227.80000000447","continuous","c","corn","they bring supplies and a toolkit to build a house",60010,"993.5","Uninterrupted","Corn"
"typing-period",42,1033697,"290018.1000000946","continuous","c","corn","girl doesn't really talk to man but hardly helps",60010,"801","Uninterrupted","Corn"
"typing-period",44,1047570,"399695.40000009164","continuous","c","corn","girl begins to help more, progress to build house quickens",60010,"999.7999999970198","Uninterrupted","Corn"
"typing-period",46,1056111,"130724.1999999322","continuous","c","corn","girl is scared when military shows up",60010,"825.1999999992549","Uninterrupted","Corn"
"typing-period",48,1066711,"281562.799999997","continuous","c","corn","the man in a way, protects her with his presence",60010,"653","Uninterrupted","Corn"
"typing-period",50,1075632,"173396.49999999255","continuous","c","corn","they finish building the house together",60010,"822.3000000007451","Uninterrupted","Corn"
"typing-period",52,1096532,"694946.3999998793","continuous","c","corn","when house is built, they go back from where the came from by boat",60010,"635.8000000007451","Uninterrupted","Corn"
"typing-period",54,1113558,"379180.6000000611","continuous","c","corn","girl and old man are distant at first",60010,"3816.39999999851","Uninterrupted","Corn"
"typing-period",56,1129553,"502688.5000000559","continuous","c","corn","girl breaks distance between her and old man by sharing lunch",60010,"1167.300000000745","Uninterrupted","Corn"
"typing-period",58,1151828,"1125487.0000001155","continuous","c","corn","girl is well dressed and young, has no problem carrying things to build house",60010,"818.0999999977648","Uninterrupted","Corn"
"typing-period",60,1164329,"321899.99999990314","continuous","c","corn","old man struggles to build house but does most of the labor",60010,"1618.800000000745","Uninterrupted","Corn"
"typing-period",62,1279606,"null","continuous","c","corn","",60010,"null","Uninterrupted","Corn"
"typing-period",73,1917965,"199207.70000003278","continuous","c","iron","man is homeless, breaks into houses",60010,"1424.199999999255","Uninterrupted","3Iron"
"typing-period",75,1931460,"383731.6000000872","continuous","c","iron","he sleeps and breaks into a different house every time",60010,"807.2000000029802","Uninterrupted","3Iron"
"typing-period",77,1947495,"363380.9999999963","continuous","c","iron","eventually he breaks into a very luxurious house",60010,"2080.10000000149","Uninterrupted","3Iron"
"typing-period",79,1962627,"432879.8000000529","continuous","c","iron","in the luxurious house there is a woman who has been beaten",60010,"1001","Uninterrupted","3Iron"
"typing-period",81,1994385,"1544191.599999845","continuous","c","iron","as soon as he sleeps over and uses the luxurious house, the man and the woman become acquaintances",60010,"580","Uninterrupted","3Iron"
"typing-period",83,2007846,"277304.199999962","continuous","c","iron","the man takes the woman away from her house",60010,"961.5999999977648","Uninterrupted","3Iron"
"typing-period",85,2027102,"753796.8000000492","continuous","c","iron","they continue to hop from house to house breaking in together",60010,"634.5","Uninterrupted","3Iron"
"typing-period",87,2038668,"330131.7999999635","continuous","c","iron","they are almost caught by someone who rings at the intercom",60010,"656.6999999992549","Uninterrupted","3Iron"
"typing-period",89,2054060,"488873.8000000976","continuous","c","iron","they are fine when someone calls the intercom, it was a scare",60010,"615.7999999970198","Uninterrupted","3Iron"
"typing-period",91,2074542,"913369.2999998815","continuous","c","iron","the woman washes the man's clothes as an act of kindess, to show she's thankful",60010,"599","Uninterrupted","3Iron"
"typing-period",93,2089421,"453011.7000000514","continuous","c","iron","the man takes this sweet gesture and smiles, he seems to like her",60010,"1302.800000000745","Uninterrupted","3Iron"
"typing-period",95,2108477,"855075.1999999918","continuous","c","iron","the man then cooks a meal for the woman and she smiles at the gesture, she likes him too",60010,"601.1000000014901","Uninterrupted","3Iron"
"typing-period",97,2129971,"1016306.7000000551","continuous","c","iron","the man and woman continue to hop from house to house together and leave",60010,"474.4000000022352","Uninterrupted","3Iron"
"typing-period",99,2145770,"621381.2999998778","continuous","c","iron","the woman hands the man a pair of scissors, trusting him to cut her hair",60010,"793.5","Uninterrupted","3Iron"
"typing-period",101,2157287,"190871.29999999702","continuous","c","iron","the man cuts the woman's hair",60010,"551.3000000007451","Uninterrupted","3Iron"
"typing-period",103,2168108,"225498.40000006184","continuous","c","iron","the woman's new haircut makes her smile",60010,"440.80000000074506","Uninterrupted","3Iron"
"typing-period",105,2185523,"613382.1999999471","continuous","c","iron","the man makes the woman happy when they drive away in his motorcycle",60010,"457.3999999985099","Uninterrupted","3Iron"
"typing-period",107,2206972,"null","continuous","c","iron","",60010,"1001.3999999985099","Uninterrupted","3Iron"
"typing-period",36,1351966,"155157.09999995306","continuous","f","corn","man goes on canoe to small island",60232,"3270.199999999255","Uninterrupted","Corn"
"typing-period",38,1366095,"304084.59999992326","continuous","f","corn","he starts collecting and bringing wood ",60232,"1713.699999999255","Uninterrupted","Corn"
"typing-period",40,1377515,"240405.50000005588","continuous","f","corn","He bring the younger girl to island",60232,"1152.1000000014901","Uninterrupted","Corn"
"typing-period",42,1391233,"291124.7000000328","continuous","f","corn","military people sail by on electric boat",60232,"375.69999999925494","Uninterrupted","Corn"
"typing-period",44,1396992,"70502.50000000373","continuous","f","corn","they start to build a house",60232,"850","Uninterrupted","Corn"
"typing-period",46,1407261,"267812.49999993294","continuous","f","corn","she pulls out bread and makes them sandwhiches ",60232,"801.1999999992549","Uninterrupted","Corn"
"typing-period",48,1424702,"858073.0000001118","continuous","f","corn","they sail back to bring more material for the roof of the house",60232,"1042.1000000014901","Uninterrupted","Corn"
"typing-period",50,1447500,"1337355.7000001892","continuous","f","corn","they lay down before the house is built to look up at the sky and sleep ",60232,"515.3999999985099","Uninterrupted","Corn"
"typing-period",52,1464950,"443347.500000041","continuous","f","corn","he puts a lock on the house they built ",60232,"614.2000000029802","Uninterrupted","Corn"
"typing-period",54,1479951,"418966.8000000566","continuous","f","corn","they sail away fromt he house after it is built and locked ",60232,"1847.0999999977648","Uninterrupted","Corn"
"typing-period",56,1508362,"1486037.7000000067","continuous","f","corn","he cuts the wood to use for making the house ",60232,"741.3999999985099","Uninterrupted","Corn"
"typing-period",58,1582498,"247558.19999999925","continuous","f","corn","she looks disappointed and sad when first arriving",60232,"64830.300000000745","Uninterrupted","Corn"
"typing-period",60,1640294,"null","continuous","f","corn","",60232,"null","Uninterrupted","Corn"
"typing-period",71,2522367,"81917.19999995455","continuous","f","iron","he goes in motorcycle",60232,"1110.3999999985099","Uninterrupted","3Iron"
"typing-period",73,2527142,"33163.79999999702","continuous","f","iron","he enters house 1",60232,"729.1000000014901","Uninterrupted","3Iron"
"typing-period",75,2534279,"145932.99999996647","continuous","f","iron","he does laundry there cleans his clothes",60232,"849.3000000007451","Uninterrupted","3Iron"
"typing-period",77,2539484,"71575.5000000298","continuous","f","iron","goes into a fancier house",60232,"509.30000000074506","Uninterrupted","3Iron"
"typing-period",79,2552332,"187566.69999995083","continuous","f","iron","starts to do laundry",60232,"1890.800000000745","Uninterrupted","3Iron"
"typing-period",81,2560232,"160490.7999999486","continuous","f","iron","readjusts weight scale of the house ",60232,"431.4000000022352","Uninterrupted","3Iron"
"typing-period",83,2569414,"190327.49999997392","continuous","f","iron","there is an abused girl behind door",60232,"592.2999999970198","Uninterrupted","3Iron"
"typing-period",85,2582308,"283016.30000007525","continuous","f","iron","abused girl watches the guy insid eher house",60232,"1719","Uninterrupted","3Iron"
"typing-period",87,2589802,"145011.4000000432","continuous","f","iron","he goes to closet of the fancy house ",60232,"387.9000000022352","Uninterrupted","3Iron"
"typing-period",89,2601414,"385688.9999999665","continuous","f","iron","makes an outfit and leaves na outfit for the abused girl",60232,"546","Uninterrupted","3Iron"
"typing-period",91,2612395,"292921.80000000075","continuous","f","iron","the guy and abused girl go on motorcycle together",60232,"536.6999999992549","Uninterrupted","3Iron"
"typing-period",93,2627599,"465556.99999999255","continuous","f","iron","they go into a new house with video camera in entrance ",60232,"535.3999999985099","Uninterrupted","3Iron"
"typing-period",95,2647052,"883067.1999999993","continuous","f","iron","she cuts up painting of model and re does it",60232,"629.7000000029802","Uninterrupted","3Iron"
"typing-period",97,2652773,"50717.699999999255","continuous","f","iron"," he cuts her hair",60232,"781.1999999992549","Uninterrupted","3Iron"
"typing-period",99,2658898,"71295.90000001714","continuous","f","iron","he readjusts radio ",60232,"616.3000000007451","Uninterrupted","3Iron"
"typing-period",101,2676937,"810007.0000000596","continuous","f","iron","she clean clothes in the shower of the new hours",60232,"444.1000000014901","Uninterrupted","3Iron"
"typing-period",103,2691511,"465528.9999998957","continuous","f","iron","a person almost enters the new house they are in but leaves",60232,"1126.8999999985099","Uninterrupted","3Iron"
"typing-period",105,2702511,"343961.1999999918","continuous","f","iron","he takes a picture with a painting at first house",60232,"708.3000000007451","Uninterrupted","3Iron"
"typing-period",107,2718613,"622491.4999999553","continuous","f","iron","they take a digital picture together with boxer painting at last house ",60232,"1338","Uninterrupted","3Iron"
"typing-period",109,2755526,"106326.99999999627","continuous","f","iron","they are on motorcycle together",60232,"30507.900000002235","Uninterrupted","3Iron"
"typing-period",111,2765798,"115358.09999995306","continuous","f","iron","he makes rice in a rice cooker ",60232,"3920.300000000745","Uninterrupted","3Iron"
"typing-period",113,2815238,"null","continuous","f","iron","",60232,"null","Uninterrupted","3Iron"
"typing-period",48,1256038,"220515.80000066757","continuous","f","corn","old man on boat going to small island",60466,"2595.2999999523163","Uninterrupted","Corn"
"typing-period",50,1260629,"34808.69999963045","continuous","f","corn","has material on boat",60466,"718","Uninterrupted","Corn"
"typing-period",52,1269134,"203788.5999993682","continuous","f","corn","unload materials from boat onto island ",60466,"504.0999999642372","Uninterrupted","Corn"
"typing-period",54,1278284,"227681.99999904633","continuous","f","corn","starts building a house there",60466,"691.5999999642372","Uninterrupted","Corn"
"typing-period",56,1283047,"34312.19999986887","continuous","f","corn","goes back onto boat",60466,"1440.7999999523163","Uninterrupted","Corn"
"typing-period",58,1289358,"112664.8999991417","continuous","f","corn","returns with a girl and more material ",60466,"302.30000001192093","Uninterrupted","Corn"
"typing-period",60,1298417,"199988.6999991536","continuous","f","corn","the girl helping old man build the house",60466,"651.9000000357628","Uninterrupted","Corn"
"typing-period",62,1313331,"570778.0999990106","continuous","f","corn","some army people were wandering around and the girl and old man saw them",60466,"502.89999997615814","Uninterrupted","Corn"
"typing-period",64,1321171,"138769.2999998331","continuous","f","corn","they were eating some bread",60466,"354.60000002384186","Uninterrupted","Corn"
"typing-period",66,1330283,"233745.8999993205","continuous","f","corn","the girl and old man continue to build the house",60466,"568.6999999880791","Uninterrupted","Corn"
"typing-period",68,1345363,"358190.29999905825","continuous","f","corn","they kept unloading materials from boat onto island",60466,"1667","Uninterrupted","Corn"
"typing-period",70,1374663,"1541049.3000020385","continuous","f","corn","they were making the walls of the house",60466,"3435.300000011921","Uninterrupted","Corn"
"typing-period",72,1393036,"597400.7999995351","continuous","f","corn","they brought some straw from the boat",60466,"401.69999998807907","Uninterrupted","Corn"
"typing-period",74,1400796,"118039.2000002861","continuous","f","corn","they put it on the side of the house",60466,"1250.800000011921","Uninterrupted","Corn"
"typing-period",76,1409445,"194632.89999991655","continuous","f","corn","they made the rooftop with the straw ",60466,"343.60000002384186","Uninterrupted","Corn"
"typing-period",78,1416414,"133906.69999939203","continuous","f","corn","they finished making the house",60466,"1275.0999999642372","Uninterrupted","Corn"
"typing-period",80,1423479,"167745.39999943972","continuous","f","corn","they locked the door of the house",60466,"247.80000001192093","Uninterrupted","Corn"
"typing-period",82,1430594,"103681.79999953508","continuous","f","corn","and they went back to the boat",60466,"891","Uninterrupted","Corn"
"typing-period",84,1452464,"1033896.3999992609","continuous","f","corn","the girl went back out to the river and splashed some water onto her legs",60466,"2202","Uninterrupted","Corn"
"typing-period",86,1467925,"605216.6000022888","continuous","f","corn","the old man and the girl were laying on the floor when they started making the house",60466,"2902.400000035763","Uninterrupted","Corn"
"typing-period",88,1497249,"43793.99999952316","continuous","f","corn","they made a fire",60466,"24724.600000023842","Uninterrupted","Corn"
"typing-period",90,1529676,"327263.39999848604","continuous","f","corn","the girl didn't look too happy to be on the island at first",60466,"21990.399999976158","Uninterrupted","Corn"
"typing-period",92,1544859,"null","continuous","f","corn","",60466,"null","Uninterrupted","Corn"
"typing-period",103,2156612,"87302.4000005722","continuous","f","iron","guy goes off motorcycle",60466,"1223","Uninterrupted","3Iron"
"typing-period",105,2167226,"314459.39999872446","continuous","f","iron","find a place where there are some food ads on the door ",60466,"569.1999999880791","Uninterrupted","3Iron"
"typing-period",107,2177190,"338837.8000013828","continuous","f","iron","he picks the lock and enters the house",60466,"466.60000002384186","Uninterrupted","3Iron"
"typing-period",109,2186308,"237272.0999993682","continuous","f","iron","he takes a shower in the apartment",60466,"665","Uninterrupted","3Iron"
"typing-period",111,2195989,"259069.89999949932","continuous","f","iron","he cooks food in the apartment",60466,"408.7999999523163","Uninterrupted","3Iron"
"typing-period",113,2200073,"47673.19999963045","continuous","f","iron","he washes the clothes",60466,"686.2999999523163","Uninterrupted","3Iron"
"typing-period",115,2205768,"135428.30000013113","continuous","f","iron","he takes a photo of himself in the house",60466,"274.5999999642372","Uninterrupted","3Iron"
"typing-period",117,2218398,"389100.09999883175","continuous","f","iron","he sees the family coming back so he leaves",60466,"1119.5999999642372","Uninterrupted","3Iron"
"typing-period",119,2231577,"550662.39999789","continuous","f","iron","he finds a house with another flyer and enters",60466,"289.69999998807907","Uninterrupted","3Iron"
"typing-period",121,2241081,"147940.80000013113","continuous","f","iron","he eats food there",60466,"517.3000000119209","Uninterrupted","3Iron"
"typing-period",123,2248583,"79305.80000054836","continuous","f","iron","he showers there too",60466,"2239","Uninterrupted","3Iron"
"typing-period",125,2259378,"308255.30000019073","continuous","f","iron","there is a girl whose face is beaten in the house as well",60466,"795.7000000476837","Uninterrupted","3Iron"
"typing-period",127,2265886,"89635.80000060797","continuous","f","iron","girl watches the guy",60466,"892.8000000119209","Uninterrupted","3Iron"
"typing-period",129,2277981,"407619.10000133514","continuous","f","iron","the guy find the scale and goes on the scale",60466,"328.80000001192093","Uninterrupted","3Iron"
"typing-period",131,2287970,"283022.2000002861","continuous","f","iron","he takes the scale apart and does something to it",60466,"259.4000000357628","Uninterrupted","3Iron"
"typing-period",133,2302389,"633247.000002265","continuous","f","iron","after the girl showers she finds clothes that the guy has laid out for her",60466,"722.6000000238419","Uninterrupted","3Iron"
"typing-period",135,2313328,"392523.69999831915","continuous","f","iron","she puts on the clothes and she goes on the motorcycle with him",60466,"300.89999997615814","Uninterrupted","3Iron"
"typing-period",137,2319782,"77672.40000003576","continuous","f","iron","they go to the next place",60466,"435.19999998807907","Uninterrupted","3Iron"
"typing-period",139,2333481,"375769.4999988675","continuous","f","iron","he messes with a radio or a machine there",60466,"589.8000000119209","Uninterrupted","3Iron"
"typing-period",141,2347909,"558245.8000001311","continuous","f","iron","he opens a door and finds the girl washing clothes there",60466,"623.8000000119209","Uninterrupted","3Iron"
"typing-period",143,2353930,"98049.20000004768","continuous","f","iron","he cooks a meal for her ",60466,"750.3999999761581","Uninterrupted","3Iron"
"typing-period",145,2361022,"87871.59999996424","continuous","f","iron","he cuts her hair",60466,"503.80000001192093","Uninterrupted","3Iron"
"typing-period",147,2371631,"260591.10000044107","continuous","f","iron","they take a photo together in the new place",60466,"438.5","Uninterrupted","3Iron"
"typing-period",149,2392982,"1350933.3999983668","continuous","f","iron","there was another girl at the door but she went away once she realized that there was no answer",60466,"729.8000000119209","Uninterrupted","3Iron"
"typing-period",151,2420636,"844599.1000006199","continuous","f","iron","he waters the plants in the 3rd place",60466,"4720","Uninterrupted","3Iron"
"typing-period",153,2435665,"34412.200000584126","continuous","f","iron","he messes with a clock",60466,"12026.800000011921","Uninterrupted","3Iron"
"typing-period",155,2448678,"null","continuous","f","iron","",60466,"null","Uninterrupted","3Iron"
"typing-period",34,811810,"196584","continuous","c","iron","a man goes from house to house ",60982,"2140","Uninterrupted","3Iron"
"typing-period",36,831293,"1200491","continuous","c","iron","he stays there to shower and eat and moves on to the next house after a given amount of time ",60982,"807","Uninterrupted","3Iron"
"typing-period",38,847260,"448841","continuous","c","iron","in one house he founds a bruised up woman   ",60982,"789","Uninterrupted","3Iron"
"typing-period",40,866810,"1286101","continuous","c","iron","the woman doesn't get scared she waits for him to notice that she is in the house ",60982,"514","Uninterrupted","3Iron"
"typing-period",42,880589,"509926","continuous","c","iron","after he notices they leave together to move on to the next house",60982,"704","Uninterrupted","3Iron"
"typing-period",44,886511,"135050","continuous","c","iron","they move on to the next house together ",60982,"526","Uninterrupted","3Iron"
"typing-period",46,928999,"5364961","continuous","c","iron","she quickly adopts his mannerisms like cleaning clothes in the house they stay at, eating meals at the houses, and taking a picture with a peive of artwork at the end of their stay ",60982,"523","Uninterrupted","3Iron"
"typing-period",48,959336,"2982639","continuous","c","iron","at the first home together, they both were panicked when someone rang the doorbell as if they were not anticipating anyone to be home while they were there",60982,"864","Uninterrupted","3Iron"
"typing-period",50,980983,"1332240","continuous","c","iron","the guy reengineers things at each house like the bathroom scale and the clock ",60982,"644","Uninterrupted","3Iron"
"typing-period",52,1102265,"null","continuous","c","iron","",60982,"464","Uninterrupted","3Iron"
"typing-period",63,1720352,"2331368","continuous","c","corn","a man in on a land that he had to get to on a boat, at first he is alone ",60982,"995","Uninterrupted","Corn"
"typing-period",65,1746647,"1937393","continuous","c","corn","the second time he comes back to the land near the water he has a girl with him, it seemed as though it was his daughter ",60982,"772","Uninterrupted","Corn"
"typing-period",67,1771649,"1913568","continuous","c","corn","the man and his daughter start transporting peiecs of wood to finish building the house the man started building on his own",60982,"565","Uninterrupted","Corn"
"typing-period",69,1823248,"7588123","continuous","c","corn","they see three men in army uniform while building the shed or house.  the girl steps away from the water close to her father while her father nods at the soliders. the soldiers nods back and float away on their boat ",60982,"379","Uninterrupted","Corn"
"typing-period",71,1866663,"5318653","continuous","c","corn","the girl and her father spend a lot of time finishing the shed/house  and by the end of the movie they end up finishing it, locking it up at leaving ",60982,"542","Uninterrupted","Corn"
"typing-period",73,1867571,"207","continuous","c","corn","",60982,"699","Uninterrupted","Corn"
"typing-period",75,1887697,"1329449","continuous","c","corn","at one point the girl is washing her self in the water, she looks up at stares at a cloud of smoke or fog ",60982,"735","Uninterrupted","Corn"
"typing-period",77,1906131,"1079299","continuous","c","corn","the man and the girl constantly give each other looks when the other is not looking ",60982,"487","Uninterrupted","Corn"
"typing-period",79,1990075,"null","continuous","c","corn","",60982,"null","Uninterrupted","Corn"
"typing-period",28,3056607,"73217422","continuous","c","iron","a man comes home from work. he has a regular day back at home doing laundry, cleaning, and getting something to eat. he seems to be narcissistic. he takes a photograph of himself. then he goes to another apartment where he has a girl scared and beat up. he weighs himself and seems to have certain body image issues. the girl follows the mans orders and dresses up as the man wanted. he takes her on a day on leisure for himself. then they come back and he serves her food and treats her well. the girl seems confused. then they take a picture together. ",61582,"3409","Uninterrupted","3Iron"
"typing-period",39,4097396,"140564570","continuous","c","corn","a man is in a little beat up boat. he gets to a small island and gets down. he begins working on what seems to be his new home. he runs out of supplies. he leaves the small island in the boat and comes back with a girl. at first, we cannot tell if the girl is kidnapped or his daughter. as the clip progresses she seems comfortable with him and her presence makes the old man smile. he continues to work on the small home. later on, the girl starts to help. they go back for more supplies and come back to finish the home. also, army people pass by with a motored boat and look at the old man and the girl weird. it seems like the old man is making this home as a safe space for him and for the girl. in a deserted far away island where danger is far away. they share food and take care of each other. they finish the home and they are happy. now they leave again. ",61582,"765","Uninterrupted","Corn"
"typing-period",41,4097405,"null","continuous","c","corn","",61582,"null","Uninterrupted","Corn"
"typing-period",34,1213235,"339974.0000000021","continuous","c","corn","a guy rowing a boat to an island/sandbar",62293,"4593","Uninterrupted","Corn"
"typing-period",36,1225734,"112818.00000000093","continuous","c","corn","guy unloads the boat with wood",62293,"1591","Uninterrupted","Corn"
"typing-period",38,1246355,"414068.00000000093","continuous","c","corn","starts to build foundation of house",62293,"2111","Uninterrupted","Corn"
"typing-period",40,1260449,"244491.00000000047","continuous","c","corn","guy comes back with girl",62293,"909","Uninterrupted","Corn"
"typing-period",42,1278562,"293803.0000000014","continuous","c","corn","they both unload boat with more materials",62293,"1558.0000000002328","Uninterrupted","Corn"
"typing-period",44,1297684,"455637.00000000093","continuous","c","corn","another boat passes by with military men",62293,"2038","Uninterrupted","Corn"
"typing-period",46,1305609,"61445.0000000007","continuous","c","corn","they both eat",62293,"1014","Uninterrupted","Corn"
"typing-period",48,1309694,"39936.00000000023","continuous","c","corn","man starts fire",62293,"645","Uninterrupted","Corn"
"typing-period",50,1323909,"210733.00000000047","continuous","c","corn","they keep building a house",62293,"1381","Uninterrupted","Corn"
"typing-period",52,1342487,"316928.9999999921","continuous","c","corn","come back with material for a roof",62293,"773","Uninterrupted","Corn"
"typing-period",54,1358570,"306953.00000000116","continuous","c","corn","they both lay down for a break",62293,"736","Uninterrupted","Corn"
"typing-period",56,1375086,"559858.0000000014","continuous","c","corn","the girl washes her legs off in the water",62293,"908","Uninterrupted","Corn"
"typing-period",58,1396313,"586088.0000000007","continuous","c","corn","the guy locks the house with a lock",62293,"804","Uninterrupted","Corn"
"typing-period",60,1470932,"5858017.000000002","continuous","c","corn","the girl hands the guy pieces of wood to nail in for the walls of the house",62293,"754","Uninterrupted","Corn"
"typing-period",62,1494652,"null","continuous","c","corn","",62293,"1180","Uninterrupted","Corn"
"typing-period",73,2152364,"160829.0000000028","continuous","c","iron","the guy picks a lock",62293,"2544","Uninterrupted","3Iron"
"typing-period",75,2177031,"684886.0000000028","continuous","c","iron","the guy cleans up the apartment ",62293,"998","Uninterrupted","3Iron"
"typing-period",77,2182855,"41846.00000000093","continuous","c","iron","the guy does laundry ",62293,"819.0000000004657","Uninterrupted","3Iron"
"typing-period",79,2210104,"730233.0000000033","continuous","c","iron","the guy goes to another apartment and finds a girl with bruises",62293,"2210","Uninterrupted","3Iron"
"typing-period",81,2225986,"511513.0000000051","continuous","c","iron","the guy lays out an outfit for the girl",62293,"694","Uninterrupted","3Iron"
"typing-period",83,2241877,"507930.00000000093","continuous","c","iron","they both leave on his moped to another apartment",62293,"885.0000000004657","Uninterrupted","3Iron"
"typing-period",85,2249211,"105421.00000000093","continuous","c","iron","the guy makes the girl food",62293,"734","Uninterrupted","3Iron"
"typing-period",87,2257230,"108374","continuous","c","iron","the guy cuts the girls hair ",62293,"2077","Uninterrupted","3Iron"
"typing-period",89,2265993,"115858.00000000233","continuous","c","iron","the guy fixes a clock",62293,"933","Uninterrupted","3Iron"
"typing-period",91,2272014,"45142.00000000093","continuous","c","iron","the guy fixes a radio",62293,"604","Uninterrupted","3Iron"
"typing-period",93,2279495,"63790.000000000466","continuous","c","iron","the guy fixes a scale",62293,"428","Uninterrupted","3Iron"
"typing-period",95,2342409,"5685767.000000007","continuous","c","iron","a girl 'Knocks' On a the door and they see her through a camera",62293,"477","Uninterrupted","3Iron"
"typing-period",97,2360302,"570429.0000000033","continuous","c","iron","the girl is washes clothes",62293,"1290","Uninterrupted","3Iron"
"typing-period",99,2379851,"802994.0000000056","continuous","c","iron","they take a picture of themselves with a photo on the wall in boxing gloves",62293,"807","Uninterrupted","3Iron"
"typing-period",101,2399406,"454175.0000000028","continuous","c","iron","the girl is hiding in the corner when the guy comes to her apartment",62293,"6494","Uninterrupted","3Iron"
"typing-period",103,2420206,"597584.0000000019","continuous","c","iron","the guy 'Listens' To the noise machines",62293,"703","Uninterrupted","3Iron"
"typing-period",105,2440795,"null","continuous","c","iron","",62293,"358","Uninterrupted","3Iron"
"typing-period",28,937064,"6266450.900001511","continuous","c","iron","manin motorcycle arrives in apartment building. cleans,takes pic o himself. drives over to womans place. Woman is beat up, has a black eye from something. Witnesses guy do something. Starts getting hair cut and they interact",62374,"1858","Uninterrupted","3Iron"
"typing-period",30,970354,"489461.39999987185","continuous","c","iron","women and man interact",62374,"11426","Uninterrupted","3Iron"
"typing-period",32,977923,"116280.69999998808","continuous","c","iron","woman starts getting hair cut",62374,"1576.4000000059605","Uninterrupted","3Iron"
"typing-period",34,979147,"717.2999999821186","continuous","c","iron"," ",62374,"807.7000000029802","Uninterrupted","3Iron"
"typing-period",36,979413,"103.09999999403954","continuous","c","iron","",62374,"160.59999999403954","Uninterrupted","3Iron"
"typing-period",38,979625,"71.20000000298023","continuous","c","iron","",62374,"139.09999999403954","Uninterrupted","3Iron"
"typing-period",40,979815,"86.1000000089407","continuous","c","iron","",62374,"101.1000000089407","Uninterrupted","3Iron"
"typing-period",42,979992,"84.5","continuous","c","iron","",62374,"91.30000001192093","Uninterrupted","3Iron"
"typing-period",44,980198,"72.20000000298023","continuous","c","iron","",62374,"131.20000000298023","Uninterrupted","3Iron"
"typing-period",46,980374,"62.5","continuous","c","iron","",62374,"110.5","Uninterrupted","3Iron"
"typing-period",48,980567,"62.099999994039536","continuous","c","iron","",62374,"129.70000000298023","Uninterrupted","3Iron"
"typing-period",50,980752,"43.099999994039536","continuous","c","iron","",62374,"138.90000000596046","Uninterrupted","3Iron"
"typing-period",52,980929,"46.5","continuous","c","iron","",62374,"128.90000000596046","Uninterrupted","3Iron"
"typing-period",54,981128,"63.20000000298023","continuous","c","iron","",62374,"134.70000000298023","Uninterrupted","3Iron"
"typing-period",56,981329,"83.40000000596046","continuous","c","iron","",62374,"115.79999999701977","Uninterrupted","3Iron"
"typing-period",58,981515,"93.79999999701977","continuous","c","iron","",62374,"89.70000000298023","Uninterrupted","3Iron"
"typing-period",60,981705,"69.5","continuous","c","iron","",62374,"118.5","Uninterrupted","3Iron"
"typing-period",62,981916,"109.1000000089407","continuous","c","iron","",62374,"99.80000001192093","Uninterrupted","3Iron"
"typing-period",64,982106,"100","continuous","c","iron","",62374,"87.8999999910593","Uninterrupted","3Iron"
"typing-period",66,982309,"118.6000000089407","continuous","c","iron","",62374,"82.70000000298023","Uninterrupted","3Iron"
"typing-period",68,982514,"153","continuous","c","iron","",62374,"49.400000005960464","Uninterrupted","3Iron"
"typing-period",70,982683,"321.90000000596046","continuous","c","iron"," ",62374,"1.3999999910593033","Uninterrupted","3Iron"
"typing-period",72,983095,"197","continuous","c","iron","",62374,"213.5","Uninterrupted","3Iron"
"typing-period",74,983377,"124","continuous","c","iron","",62374,"155.09999999403954","Uninterrupted","3Iron"
"typing-period",76,983584,"125.30000001192093","continuous","c","iron","",62374,"79.3999999910593","Uninterrupted","3Iron"
"typing-period",78,983783,"146","continuous","c","iron","",62374,"51.1000000089407","Uninterrupted","3Iron"
"typing-period",80,984002,"341.8999999910593","continuous","c","iron"," ",62374,"43.400000005960464","Uninterrupted","3Iron"
"typing-period",82,984224,"58.6000000089407","continuous","c","iron","",62374,"160.90000000596046","Uninterrupted","3Iron"
"typing-period",84,984439,"103.8999999910593","continuous","c","iron","",62374,"108.70000000298023","Uninterrupted","3Iron"
"typing-period",86,990708,"85948.60000000894","continuous","c","iron","i dont remember anything more",62374,"1724.800000011921","Uninterrupted","3Iron"
"typing-period",88,1134529,"697.2000000029802","continuous","c","iron","",62374,"143074.09999999404","Uninterrupted","3Iron"
"typing-period",90,1182791,"null","continuous","c","iron","",62374,"null","Uninterrupted","3Iron"
"typing-period",101,1782147,"479966.799999997","continuous","c","corn","girl and man went on boat to some island with a hut",62374,"1030.7999999970198","Uninterrupted","Corn"
"typing-period",103,1792581,"149226.39999985695","continuous","c","corn","man starts building hut out of wood ",62374,"977.7000000029802","Uninterrupted","Corn"
"typing-period",105,1803963,"388544.7000001967","continuous","c","corn","he has a boat, sails out to bring a woman and more wood over",62374,"877.7999999970198","Uninterrupted","Corn"
"typing-period",107,1813315,"228339.49999970198","continuous","c","corn","woman starts cooking and eating food while man builds",62374,"1495.2000000029802","Uninterrupted","Corn"
"typing-period",109,1829627,"802895.1000002921","continuous","c","corn","they start doing their own thing but eventually coming together on the boat",62374,"834.7000000029802","Uninterrupted","Corn"
"typing-period",111,2067577,"null","continuous","c","corn","",62374,"null","Uninterrupted","Corn"
"typing-period",40,933352,"161966.19999963045","continuous","f","corn","an old man rows to an island",62494,"1587.699999988079","Uninterrupted","Corn"
"typing-period",42,946759,"301255.4000006914","continuous","f","corn","soliders pass by the island in a boat",62494,"2710.099999964237","Uninterrupted","Corn"
"typing-period",44,966012,"754977.8999991417","continuous","f","corn","the old man brings logs out of the boat and tosses them onto sand",62494,"2560.899999976158","Uninterrupted","Corn"
"typing-period",46,974190,"228586","continuous","f","corn","the old man brings a young woman with him to the island",62494,"731.1999999880791","Uninterrupted","Corn"
"typing-period",48,993712,"405123.2000014782","continuous","f","corn","the young woman drinks water from a pitcher",62494,"5560.399999976158","Uninterrupted","Corn"
"typing-period",50,1017138,"741049.5999980569","continuous","f","corn","the young woman and old man carry straw from their boat onto the island",62494,"8095.099999964237","Uninterrupted","Corn"
"typing-period",52,1026085,"238779.3000008464","continuous","f","corn","the old man builds the  frame of a house on the island",62494,"974.2000000476837","Uninterrupted","Corn"
"typing-period",54,1037824,"439257.5000000596","continuous","f","corn","the young woman takes her shoes off and washes her legs with water",62494,"709.1999999880791","Uninterrupted","Corn"
"typing-period",56,1050243,"95732.29999953508","continuous","f","corn","the old man collects sticks",62494,"7158.800000011921","Uninterrupted","Corn"
"typing-period",58,1055771,"69971.69999998808","continuous","f","corn","the old man makes a fire",62494,"749.6000000238419","Uninterrupted","Corn"
"typing-period",60,1064922,"166054.10000115633","continuous","f","corn","the young woman eats some kind of meat",62494,"1948","Uninterrupted","Corn"
"typing-period",62,1073595,"114053.29999995232","continuous","f","corn","the young woman splits some cheese",62494,"2462.399999976158","Uninterrupted","Corn"
"typing-period",64,1089451,"740341.7999988198","continuous","f","corn","the young woman is carrying a doll the first time she comes to the island",62494,"1527.0999999642372","Uninterrupted","Corn"
"typing-period",66,1108600,"839050.4000012875","continuous","f","corn","the young woman and the old man lie on the sand inside the house frame",62494,"1536.4000000357628","Uninterrupted","Corn"
"typing-period",68,1124465,"198448.5999994874","continuous","f","corn","the old man locks the door to the house he's built",62494,"8383.399999976158","Uninterrupted","Corn"
"typing-period",70,1133582,"139787.7999997139","continuous","f","corn","an old man is rowing a boat",62494,"2558.100000023842","Uninterrupted","Corn"
"typing-period",72,1156888,"49433.600000321865","continuous","f","corn","the old man cuts some wood",62494,"19730.599999964237","Uninterrupted","Corn"
"typing-period",74,1174774,"481061.9999997616","continuous","f","corn","the young woman hands bundles of straw to the old man ",62494,"3620.2000000476837","Uninterrupted","Corn"
"typing-period",76,1185905,"427851.80000162125","continuous","f","corn"," the old man covers the roof of the house with straw",62494,"463.5999999642372","Uninterrupted","Corn"
"typing-period",78,1191388,"81055.2999997735","continuous","f","corn","the old man climbs down a ladder",62494,"641.6999999880791","Uninterrupted","Corn"
